Folder: MEatectask

File: battery_soh_data_cycle4.csv
Cycle_Index,Capacity(Ah),SoH
1,2.264,100.0
2,1.687,74.5141
3,1.666,73.5866
4,1.647,72.7473
5,1.633,72.129
6,1.625,71.7756
7,1.607,70.9806
8,1.598,70.583
9,1.583,69.9205
10,1.57,69.3463
11,1.562,68.9929
12,1.548,68.3746
13,1.531,67.6237
14,1.51,66.6961
15,1.504,66.4311
16,1.483,65.5035
17,1.468,64.841
18,1.452,64.1343
19,1.435,63.3834
20,1.414,62.4558
21,1.399,61.7933
22,1.38,60.9541
23,1.367,60.3799
24,1.344,59.364
25,1.324,58.4806
26,1.303,57.553
27,1.281,56.5813
28,1.261,55.6979
29,1.241,54.8145
30,1.217,53.7544
31,1.197,52.871
32,1.178,52.0318
33,1.16,51.2367
34,1.139,50.3092
35,1.122,49.5583
36,1.1,48.5866
37,1.082,47.7915
38,1.068,47.1731
39,1.043,46.0689
40,1.022,45.1413
41,1.007,44.4788
42,0.991,43.7721
43,0.976,43.1095
44,0.956,42.2261
45,0.945,41.7403
46,0.927,40.9452
47,0.902,39.841
48,0.887,39.1784
49,0.874,38.6042
50,0.868,38.3392
51,0.847,37.4117
52,0.829,36.6166
53,0.82,36.2191
54,0.804,35.5124
55,0.793,35.0265
56,0.778,34.364
57,0.767,33.8781
58,0.755,33.3481
59,0.738,32.5972
60,0.73,32.2438
61,0.719,31.758
62,0.71,31.3604
63,0.701,30.9629
64,0.69,30.477
65,0.682,30.1237
66,0.675,29.8145
67,0.671,29.6378
68,0.656,28.9753
69,0.646,28.5336
70,0.64,28.2686
71,0.633,27.9594
72,0.623,27.5177
73,0.613,27.076
74,0.607,26.811
75,0.598,26.4134
76,0.595,26.2809
77,0.589,26.0159
78,0.582,25.7067
79,0.575,25.3975
80,0.563,24.8675
81,0.561,24.7792
82,0.552,24.3816
83,0.548,24.2049
84,0.536,23.6749
85,0.531,23.4541
86,0.532,23.4982
87,0.524,23.1449
88,0.519,22.924
89,0.514,22.7032
90,0.507,22.394
91,0.503,22.2173
92,0.494,21.8198
93,0.497,21.9523
94,0.491,21.6873
95,0.483,21.3339
96,0.48,21.2014
97,0.473,20.8922
98,0.468,20.6714
99,0.461,20.3622
100,0.456,20.1413
101,0.451,19.9205